trial,stim_name,target_bg,l_probe,response,resp.time,start_time,stop_time
0,sbcs,w,0.16,Right,2.90885,20231113:175145.987589,20231113:175149.224028
1,sbcs,w,0.22,Left,2.20594,20231113:175149.225492,20231113:175151.782819
2,sbcs,w,0.16,Left,2.30524,20231113:175151.838866,20231113:175154.494350
3,sbcs,w,0.22,Left,1.24477,20231113:175154.495524,20231113:175156.087693
4,sbcs,w,0.1,Right,0.77779,20231113:175156.088882,20231113:175157.182199
5,sbcs,w,0.16,Left,1.80516,20231113:175157.183414,20231113:175159.321848
6,sbcs,b,0.72,Left,1.36253,20231113:175159.323049,20231113:175201.045056
7,sbcs,b,0.78,Left,1.0561,20231113:175201.046269,20231113:175202.451126
8,sbcs,w,0.1,Left,1.83216,20231113:175202.505051,20231113:175204.693910
9,sbcs,b,0.66,Left,0.77503,20231113:175204.695109,20231113:175205.787536
10,sbcs,b,0.84,Right,1.09977,20231113:175205.788726,20231113:175207.246254
11,sbcs,b,0.66,Left,0.63711,20231113:175207.247470,20231113:175208.231505
12,sbcs,w,0.4,Left,0.78198,20231113:175208.232720,20231113:175209.322762
13,sbcs,w,0.4,Left,0.67927,20231113:175209.324009,20231113:175210.363274
14,sbcs,b,0.6,Left,0.60415,20231113:175210.364849,20231113:175211.329350
15,sbcs,b,0.72,Left,0.8213,20231113:175211.330770,20231113:175212.505275
16,sbcs,b,0.78,Left,1.99214,20231113:175212.506005,20231113:175214.851946
17,sbcs,b,0.6,Left,0.61773,20231113:175214.853404,20231113:175215.786593
18,sbcs,w,0.22,Left,2.3977,20231113:175215.787804,20231113:175218.497616
19,sbcs,w,0.1,Left,1.77076,20231113:175218.498826,20231113:175220.612715
20,sbcs,b,0.78,Left,1.42879,20231113:175220.646014,20231113:175222.414278
21,sbcs,w,0.34,Left,0.60934,20231113:175222.415329,20231113:175223.381829
22,sbcs,b,0.66,Left,0.65118,20231113:175223.383030,20231113:175224.370034
23,sbcs,b,0.66,Left,0.59505,20231113:175224.371454,20231113:175225.337208
24,sbcs,b,0.66,Left,0.53949,20231113:175225.338417,20231113:175226.219162
25,sbcs,b,0.78,Left,1.38579,20231113:175226.220752,20231113:175227.970771
26,sbcs,w,0.28,Left,1.02987,20231113:175227.972020,20231113:175229.324244
27,sbcs,b,0.84,Left,1.16173,20231113:175229.325460,20231113:175230.838501
28,sbcs,w,0.28,Left,0.71753,20231113:175230.839746,20231113:175231.875567
29,sbcs,w,0.28,Left,1.22143,20231113:175231.903985,20231113:175233.468926
30,sbcs,w,0.4,Left,0.90021,20231113:175233.470145,20231113:175234.751969
31,sbcs,b,0.6,Left,1.93572,20231113:175234.753166,20231113:175236.997157
32,sbcs,b,0.78,Left,3.93112,20231113:175237.045320,20231113:175241.364934
33,sbcs,w,0.22,Left,1.28816,20231113:175241.366134,20231113:175242.975930
34,sbcs,w,0.34,Left,0.63657,20231113:175242.977301,20231113:175243.997025
35,sbcs,b,0.6,Left,0.87507,20231113:175243.998223,20231113:175245.192963
36,sbcs,b,0.72,Left,0.83968,20231113:175245.194453,20231113:175246.393080
37,sbcs,w,0.34,Left,0.92319,20231113:175246.394312,20231113:175247.641220
38,sbcs,b,0.9,Right,0.96433,20231113:175247.641858,20231113:175248.938983
39,sbcs,w,0.1,Left,6.21957,20231113:175248.969957,20231113:175255.500777
40,sbcs,b,0.9,Right,0.88382,20231113:175255.501953,20231113:175256.694301
41,sbcs,b,0.9,Right,0.8346,20231113:175256.695571,20231113:175257.870870
42,sbcs,b,0.9,Right,1.83972,20231113:175257.872126,20231113:175300.058984
43,sbcs,w,0.28,Left,0.58791,20231113:175300.060240,20231113:175300.991559
44,sbcs,w,0.22,Left,0.63074,20231113:175300.992778,20231113:175301.979987
45,sbcs,w,0.1,Left,1.8863,20231113:175301.981216,20231113:175304.223518
46,sbcs,w,0.1,Left,1.37462,20231113:175304.224763,20231113:175305.943238
47,sbcs,b,0.66,Left,1.22865,20231113:175305.944465,20231113:175307.505175
48,sbcs,w,0.16,Left,2.03996,20231113:175307.506422,20231113:175309.853145
49,sbcs,b,0.66,Left,1.81491,20231113:175309.854369,20231113:175311.990699
50,sbcs,w,0.16,Left,1.30169,20231113:175311.991931,20231113:175313.636561
51,sbcs,w,0.4,Left,1.2017,20231113:175313.637993,20231113:175315.145352
52,sbcs,w,0.4,Left,0.67363,20231113:175315.146717,20231113:175316.131265
53,sbcs,w,0.16,Left,1.34596,20231113:175316.132152,20231113:175317.831355
54,sbcs,b,0.6,Left,0.80656,20231113:175317.831749,20231113:175319.002061
55,sbcs,b,0.6,Left,0.62804,20231113:175319.035741,20231113:175320.019458
56,sbcs,b,0.72,Left,2.9164,20231113:175320.020688,20231113:175323.255825
57,sbcs,b,0.78,Left,1.92431,20231113:175323.257048,20231113:175325.499075
58,sbcs,w,0.22,Left,0.66023,20231113:175325.500320,20231113:175326.485999
59,sbcs,w,0.28,Left,0.73852,20231113:175326.487450,20231113:175327.578426
60,sbcs,b,0.78,Left,1.24344,20231113:175331.942746,20231113:175333.502795
61,sbcs,b,0.72,Left,0.85317,20231113:175333.504062,20231113:175334.728869
62,sbcs,b,0.84,Left,3.31764,20231113:175334.730080,20231113:175338.382894
63,sbcs,w,0.1,Left,1.46194,20231113:175338.384301,20231113:175340.156395
64,sbcs,w,0.22,Left,1.39072,20231113:175340.157639,20231113:175341.876705
65,sbcs,b,0.78,Right,3.90726,20231113:175341.877941,20231113:175346.110511
66,sbcs,w,0.28,Left,1.26779,20231113:175346.111746,20231113:175347.724849
67,sbcs,w,0.34,Left,0.57743,20231113:175347.726399,20231113:175348.688518
68,sbcs,b,0.84,Right,0.44483,20231113:175348.689409,20231113:175349.462804
69,sbcs,b,0.9,Right,0.86799,20231113:175349.464048,20231113:175350.656846
70,sbcs,b,0.6,Left,0.41892,20231113:175350.658650,20231113:175351.466569
71,sbcs,b,0.9,Right,0.34991,20231113:175351.517815,20231113:175352.187999
72,sbcs,b,0.9,Right,1.02635,20231113:175352.189228,20231113:175353.573846
73,sbcs,b,0.9,Right,0.76303,20231113:175353.575077,20231113:175354.699129
74,sbcs,w,0.22,Left,0.52908,20231113:175354.700361,20231113:175355.581267
75,sbcs,b,0.72,Left,0.86643,20231113:175355.582441,20231113:175356.779369
76,sbcs,b,0.84,Left,1.50944,20231113:175356.825800,20231113:175358.650203
77,sbcs,w,0.34,Left,0.48323,20231113:175358.651711,20231113:175359.480520
78,sbcs,b,0.84,Left,1.52448,20231113:175359.481759,20231113:175401.357640
79,sbcs,w,0.4,Left,0.43629,20231113:175401.358883,20231113:175402.165512
80,sbcs,b,0.66,Left,0.42413,20231113:175402.166926,20231113:175402.978112
81,sbcs,w,0.22,Left,0.59131,20231113:175402.979335,20231113:175403.912972
82,sbcs,w,0.4,Left,0.40649,20231113:175403.914386,20231113:175404.636585
83,sbcs,b,0.66,Left,0.49944,20231113:175404.637836,20231113:175405.497655
84,sbcs,w,0.16,Left,1.68448,20231113:175405.498891,20231113:175407.532435
85,sbcs,b,0.6,Left,1.16957,20231113:175407.566959,20231113:175409.076319
86,sbcs,b,0.84,Right,2.5952,20231113:175409.077543,20231113:175412.029274
87,sbcs,b,0.84,Right,1.26568,20231113:175412.030497,20231113:175413.646193
88,sbcs,w,0.34,Left,0.49765,20231113:175413.647443,20231113:175414.508627
89,sbcs,b,0.72,Left,0.62901,20231113:175414.509868,20231113:175415.495748
90,sbcs,w,0.34,Left,0.45924,20231113:175415.497192,20231113:175416.273425
91,sbcs,b,0.66,Left,0.54174,20231113:175416.274653,20231113:175417.153203
92,sbcs,w,0.1,Left,1.35975,20231113:175417.154446,20231113:175418.820264
93,sbcs,w,0.4,Left,0.44732,20231113:175418.849926,20231113:175419.658440
94,sbcs,w,0.1,Left,4.73412,20231113:175419.659698,20231113:175424.756558
95,sbcs,w,0.28,Left,1.55265,20231113:175424.791269,20231113:175426.702478
96,sbcs,b,0.84,Left,2.10877,20231113:175426.703734,20231113:175429.160206
97,sbcs,w,0.16,Left,0.84831,20231113:175429.161586,20231113:175430.357820
98,sbcs,w,0.28,Left,0.77873,20231113:175430.359119,20231113:175431.449562
99,sbcs,w,0.34,Left,0.88052,20231113:175431.450828,20231113:175432.648175
100,sbcs,w,0.16,Left,3.51152,20231113:175432.649411,20231113:175436.512005
101,sbcs,w,0.16,Left,1.61404,20231113:175436.513244,20231113:175438.440976
102,sbcs,w,0.4,Left,0.88833,20231113:175438.442246,20231113:175439.636240
103,sbcs,w,0.34,Left,0.40613,20231113:175439.637476,20231113:175440.362413
104,sbcs,b,0.78,Left,2.61842,20231113:175440.363657,20231113:175443.337818
105,sbcs,b,0.6,Left,0.81352,20231113:175443.339079,20231113:175444.480952
106,sbcs,b,0.9,Left,4.80956,20231113:175444.482357,20231113:175449.607766
107,sbcs,w,0.1,Left,2.22,20231113:175449.608999,20231113:175452.164910
108,sbcs,w,0.28,Left,0.96721,20231113:175452.166156,20231113:175453.466680
109,sbcs,b,0.78,Left,1.38995,20231113:175453.467976,20231113:175455.186862
110,sbcs,w,0.34,Left,1.36117,20231113:175455.188112,20231113:175456.905392
111,sbcs,b,0.72,Left,1.68077,20231113:175456.906635,20231113:175458.939445
112,sbcs,b,0.84,Left,1.09543,20231113:175458.940681,20231113:175500.345980
113,sbcs,w,0.28,Left,1.69583,20231113:175500.398360,20231113:175502.427636
114,sbcs,b,0.72,Left,0.90681,20231113:175502.428857,20231113:175503.707618
115,sbcs,b,0.6,Left,0.4143,20231113:175503.708852,20231113:175504.432832
116,sbcs,b,0.9,Right,1.80868,20231113:175504.434056,20231113:175506.574460
117,sbcs,b,0.72,Left,1.96643,20231113:175506.575731,20231113:175508.865084
118,sbcs,w,0.4,Left,0.65972,20231113:175508.866225,20231113:175509.849290
119,sbcs,w,0.22,Left,1.16981,20231113:175509.850511,20231113:175511.389048
