trial,stim_name,target_bg,l_probe,response,resp.time,start_time,stop_time
0,sbcs,w,0.22,Left,31.69197,20231031:132424.379727,20231031:132456.413797
1,sbcs,w,0.28,Left,0.34037,20231031:132456.415327,20231031:132457.091136
2,sbcs,w,0.1,Left,0.84186,20231031:132457.092382,20231031:132458.284569
3,sbcs,b,0.66,Right,0.39673,20231031:132458.285766,20231031:132459.007678
4,sbcs,b,0.9,Left,2.09087,20231031:132459.009104,20231031:132501.482534
5,sbcs,b,0.72,Left,0.50013,20231031:132501.537630,20231031:132502.361190
6,sbcs,b,0.66,Left,0.45197,20231031:132502.362578,20231031:132503.135611
7,sbcs,b,0.9,Left,1.71752,20231031:132503.136556,20231031:132505.193038
8,sbcs,b,0.66,Left,0.4387,20231031:132505.194258,20231031:132505.968701
9,sbcs,w,0.34,Left,0.53417,20231031:132505.970172,20231031:132506.846164
10,sbcs,w,0.4,Left,0.31019,20231031:132506.895717,20231031:132507.540277
11,sbcs,b,0.9,Left,2.72013,20231031:132507.541484,20231031:132510.612522
12,sbcs,b,0.78,Left,0.4222,20231031:132510.613723,20231031:132511.418616
13,sbcs,w,0.34,Left,0.65747,20231031:132511.419851,20231031:132512.402159
14,sbcs,b,0.9,Left,2.10993,20231031:132512.453597,20231031:132514.897093
15,sbcs,b,0.6,Left,0.72515,20231031:132514.898454,20231031:132515.943091
16,sbcs,w,0.4,Left,0.47555,20231031:132515.944354,20231031:132516.770537
17,sbcs,b,0.66,Left,0.35195,20231031:132516.771740,20231031:132517.440081
18,sbcs,b,0.6,Left,0.29035,20231031:132517.495102,20231031:132518.111982
19,sbcs,b,0.66,Left,0.27977,20231031:132518.113225,20231031:132518.762285
20,sbcs,b,0.66,Left,0.34679,20231031:132518.763507,20231031:132519.430833
21,sbcs,w,0.1,Left,1.01478,20231031:132519.432064,20231031:132520.812872
22,sbcs,b,0.6,Left,0.80834,20231031:132520.814098,20231031:132521.954225
23,sbcs,w,0.1,Left,0.68719,20231031:132521.955439,20231031:132522.993074
24,sbcs,w,0.28,Left,0.52361,20231031:132522.994296,20231031:132523.872811
25,sbcs,b,0.6,Left,0.46876,20231031:132523.874019,20231031:132524.679098
26,sbcs,b,0.78,Left,0.9251,20231031:132524.680315,20231031:132525.922623
27,sbcs,b,0.9,Right,0.51038,20231031:132525.923847,20231031:132526.751666
28,sbcs,w,0.34,Left,0.40196,20231031:132526.752904,20231031:132527.471359
29,sbcs,b,0.78,Left,0.51785,20231031:132527.472800,20231031:132528.329696
30,sbcs,w,0.16,Left,0.44548,20231031:132528.377944,20231031:132529.151258
31,sbcs,w,0.16,Left,0.29141,20231031:132529.152532,20231031:132529.770027
32,sbcs,b,0.66,Left,0.45018,20231031:132529.771244,20231031:132530.544088
33,sbcs,w,0.22,Left,0.54861,20231031:132530.545344,20231031:132531.455200
34,sbcs,w,0.28,Left,0.35626,20231031:132531.456433,20231031:132532.125548
35,sbcs,b,0.72,Left,0.72168,20231031:132532.126753,20231031:132533.159536
36,sbcs,b,0.78,Left,0.86748,20231031:132533.160715,20231031:132534.353746
37,sbcs,w,0.1,Left,0.83801,20231031:132534.355187,20231031:132535.547558
38,sbcs,b,0.78,Left,0.65682,20231031:132535.548826,20231031:132536.530895
39,sbcs,w,0.28,Left,0.48504,20231031:132536.532112,20231031:132537.354330
40,sbcs,w,0.34,Left,0.3607,20231031:132537.355242,20231031:132538.023839
41,sbcs,w,0.34,Left,0.29652,20231031:132538.025292,20231031:132538.675448
42,sbcs,b,0.84,Left,1.08029,20231031:132538.676689,20231031:132540.109950
43,sbcs,b,0.9,Right,0.62939,20231031:132540.111190,20231031:132541.095010
44,sbcs,w,0.1,Left,0.43978,20231031:132541.096248,20231031:132541.870336
45,sbcs,b,0.6,Left,0.42155,20231031:132541.871555,20231031:132542.642895
46,sbcs,w,0.22,Left,0.48542,20231031:132542.643977,20231031:132543.469070
47,sbcs,w,0.1,Left,0.42218,20231031:132543.470329,20231031:132544.242110
48,sbcs,b,0.84,Left,0.46373,20231031:132544.243319,20231031:132545.012793
49,sbcs,w,0.16,Left,0.51114,20231031:132545.013851,20231031:132545.839184
50,sbcs,b,0.6,Left,0.37366,20231031:132545.868647,20231031:132546.623137
51,sbcs,b,0.78,Left,0.57967,20231031:132546.624376,20231031:132547.555413
52,sbcs,b,0.84,Left,0.319,20231031:132547.556570,20231031:132548.258899
53,sbcs,b,0.84,Left,0.90119,20231031:132548.260158,20231031:132549.504577
54,sbcs,b,0.6,Left,0.41934,20231031:132549.505801,20231031:132550.278959
55,sbcs,b,0.6,Left,0.64489,20231031:132550.280255,20231031:132551.263135
56,sbcs,w,0.22,Left,0.57304,20231031:132551.343455,20231031:132552.222596
57,sbcs,w,0.28,Left,0.37202,20231031:132552.223828,20231031:132552.944234
58,sbcs,w,0.22,Left,0.26345,20231031:132552.945500,20231031:132553.562342
59,sbcs,b,0.84,Left,0.78392,20231031:132553.563567,20231031:132554.652670
60,sbcs,b,0.66,Left,0.59455,20231031:132556.317612,20231031:132557.249530
61,sbcs,w,0.34,Left,0.33234,20231031:132557.250774,20231031:132557.923605
62,sbcs,w,0.16,Left,0.27597,20231031:132557.924860,20231031:132558.540605
63,sbcs,b,0.78,Left,0.44203,20231031:132558.541850,20231031:132559.316023
64,sbcs,w,0.16,Left,0.39218,20231031:132559.317285,20231031:132600.040164
65,sbcs,w,0.34,Left,0.25989,20231031:132600.041622,20231031:132600.638075
66,sbcs,w,0.34,Left,0.32541,20231031:132600.639307,20231031:132601.308752
67,sbcs,w,0.1,Left,0.28154,20231031:132601.309548,20231031:132601.923594
68,sbcs,w,0.28,Left,0.57426,20231031:132601.924544,20231031:132602.804834
69,sbcs,w,0.28,Left,0.89846,20231031:132602.859566,20231031:132604.101527
70,sbcs,w,0.34,Left,0.35049,20231031:132604.102966,20231031:132604.803041
71,sbcs,w,0.28,Left,0.40793,20231031:132604.804285,20231031:132605.525274
72,sbcs,b,0.78,Left,0.68374,20231031:132605.526495,20231031:132606.562183
73,sbcs,w,0.28,Left,0.43326,20231031:132606.563393,20231031:132607.336763
74,sbcs,w,0.34,Left,0.32565,20231031:132607.338007,20231031:132608.035849
75,sbcs,b,0.84,Left,0.45507,20231031:132608.092594,20231031:132608.865062
76,sbcs,w,0.28,Left,0.50682,20231031:132608.866304,20231031:132609.692659
77,sbcs,b,0.66,Left,0.57133,20231031:132609.693923,20231031:132610.572108
78,sbcs,w,0.4,Left,0.4109,20231031:132610.573366,20231031:132611.292748
79,sbcs,b,0.9,Right,0.70976,20231031:132611.294016,20231031:132612.327654
80,sbcs,w,0.1,Left,0.3725,20231031:132612.328905,20231031:132613.083857
81,sbcs,b,0.72,Left,0.29912,20231031:132613.133884,20231031:132613.749627
82,sbcs,w,0.22,Left,0.43375,20231031:132613.750795,20231031:132614.557797
83,sbcs,b,0.84,Left,0.42976,20231031:132614.559056,20231031:132615.332951
84,sbcs,b,0.6,Left,0.43868,20231031:132615.334187,20231031:132616.107850
85,sbcs,w,0.1,Left,0.44649,20231031:132616.109110,20231031:132616.881926
86,sbcs,w,0.4,Left,0.37909,20231031:132616.883196,20231031:132617.605304
87,sbcs,b,0.72,Left,0.47372,20231031:132617.605834,20231031:132618.432232
88,sbcs,w,0.16,Left,0.40787,20231031:132618.483600,20231031:132619.203425
89,sbcs,b,0.9,Left,0.49879,20231031:132619.204605,20231031:132620.029145
90,sbcs,b,0.72,Left,0.774,20231031:132620.030393,20231031:132621.119679
91,sbcs,w,0.1,Left,0.51913,20231031:132621.120870,20231031:132621.947451
92,sbcs,w,0.16,Left,0.35344,20231031:132621.948710,20231031:132622.619227
93,sbcs,b,0.9,Right,0.5853,20231031:132622.620680,20231031:132623.582641
94,sbcs,w,0.16,Left,0.43802,20231031:132623.633370,20231031:132624.438372
95,sbcs,w,0.4,Left,0.41712,20231031:132624.439618,20231031:132625.160877
96,sbcs,w,0.22,Left,0.33147,20231031:132625.162155,20231031:132625.831940
97,sbcs,w,0.16,Left,0.34968,20231031:132625.833193,20231031:132626.533857
98,sbcs,b,0.72,Left,0.51915,20231031:132626.535095,20231031:132627.361895
99,sbcs,b,0.84,Left,0.74579,20231031:132627.363167,20231031:132628.451700
100,sbcs,b,0.6,Left,0.52484,20231031:132628.452969,20231031:132629.328399
101,sbcs,b,0.78,Left,0.62263,20231031:132629.329666,20231031:132630.258808
102,sbcs,w,0.4,Left,0.46208,20231031:132630.260092,20231031:132631.031597
103,sbcs,w,0.22,Left,0.35147,20231031:132631.032875,20231031:132631.702152
104,sbcs,b,0.72,Left,0.49671,20231031:132631.703403,20231031:132632.558986
105,sbcs,b,0.72,Left,0.75451,20231031:132632.560296,20231031:132633.645612
106,sbcs,b,0.66,Left,0.50249,20231031:132633.646886,20231031:132634.472576
107,sbcs,b,0.72,Left,0.51238,20231031:132634.524526,20231031:132635.349952
108,sbcs,w,0.16,Left,0.55479,20231031:132635.351229,20231031:132636.229989
109,sbcs,b,0.84,Left,0.98232,20231031:132636.230508,20231031:132637.556243
110,sbcs,w,0.22,Left,0.45835,20231031:132637.557525,20231031:132638.330953
111,sbcs,b,0.72,Left,0.47361,20231031:132638.332232,20231031:132639.186407
112,sbcs,b,0.9,Right,1.9984,20231031:132639.187335,20231031:132641.526870
113,sbcs,b,0.84,Left,0.41959,20231031:132641.528125,20231031:132642.300213
114,sbcs,w,0.4,Left,0.39602,20231031:132642.300586,20231031:132643.023095
115,sbcs,w,0.4,Left,0.27732,20231031:132643.024483,20231031:132643.672166
116,sbcs,b,0.78,Left,0.31895,20231031:132643.673104,20231031:132644.342134
117,sbcs,w,0.4,Left,0.33266,20231031:132644.343508,20231031:132645.012022
118,sbcs,w,0.4,Left,0.31114,20231031:132645.013294,20231031:132645.630530
119,sbcs,w,0.22,Left,0.33151,20231031:132645.631766,20231031:132646.305606
