trial,stim_name,target_bg,l_probe,response,resp.time,start_time,stop_time
0,whites,b,0.78,Right,2.28114,20231031:132648.163561,20231031:132651.030435
1,whites,b,0.9,Right,2.55701,20231031:132651.031462,20231031:132654.078055
2,whites,w,0.34,Left,0.54664,20231031:132654.079256,20231031:132655.116581
3,whites,b,0.72,Right,1.924,20231031:132655.117783,20231031:132657.508294
4,whites,w,0.22,Right,0.54194,20231031:132657.509522,20231031:132658.538557
5,whites,w,0.4,Left,0.472,20231031:132658.539775,20231031:132659.511987
6,whites,b,0.78,Right,0.39978,20231031:132659.513223,20231031:132700.369437
7,whites,b,0.72,Right,0.34509,20231031:132700.370650,20231031:132701.183991
8,whites,w,0.28,Right,0.74604,20231031:132701.185250,20231031:132702.444652
9,whites,w,0.28,Right,0.62387,20231031:132702.445861,20231031:132703.515039
10,whites,w,0.28,Right,0.32406,20231031:132703.516309,20231031:132704.321701
11,whites,b,0.78,Right,0.50787,20231031:132704.322939,20231031:132705.282037
12,whites,b,0.9,Right,0.58323,20231031:132705.283247,20231031:132706.343066
13,whites,w,0.4,Left,0.43476,20231031:132706.344416,20231031:132707.252523
14,whites,b,0.9,Right,0.41596,20231031:132707.253804,20231031:132708.106986
15,whites,b,0.6,Left,0.54602,20231031:132708.108244,20231031:132709.123882
16,whites,b,0.9,Right,0.45058,20231031:132709.125188,20231031:132710.036764
17,whites,w,0.22,Right,0.6204,20231031:132710.038010,20231031:132711.099837
18,whites,w,0.16,Left,0.5862,20231031:132711.101124,20231031:132712.177553
19,whites,b,0.84,Right,0.91448,20231031:132712.179042,20231031:132713.552817
20,whites,b,0.72,Left,0.71182,20231031:132713.554353,20231031:132714.755728
21,whites,b,0.66,Left,0.48583,20231031:132714.789081,20231031:132715.770849
22,whites,w,0.1,Right,1.35034,20231031:132715.772059,20231031:132717.567714
23,whites,w,0.28,Right,0.78168,20231031:132717.568972,20231031:132718.789963
24,whites,w,0.1,Right,0.68247,20231031:132718.790900,20231031:132719.959508
25,whites,w,0.22,Left,0.38114,20231031:132719.961106,20231031:132720.821515
26,whites,w,0.28,Right,1.16767,20231031:132720.822746,20231031:132722.489934
27,whites,w,0.16,Right,0.47555,20231031:132722.490872,20231031:132723.470647
28,whites,b,0.72,Right,0.56499,20231031:132723.471863,20231031:132724.494209
29,whites,b,0.9,Right,0.51579,20231031:132724.495446,20231031:132725.445287
30,whites,b,0.84,Right,0.84231,20231031:132725.522156,20231031:132726.846930
31,whites,w,0.22,Right,3.9333,20231031:132726.848415,20231031:132731.250822
32,whites,w,0.16,Right,0.44682,20231031:132731.252044,20231031:132732.154415
33,whites,w,0.16,Right,0.9027,20231031:132732.213387,20231031:132733.583252
34,whites,w,0.34,Left,0.60814,20231031:132733.584496,20231031:132734.645583
35,whites,b,0.84,Right,0.71319,20231031:132734.646841,20231031:132735.806852
36,whites,w,0.16,Right,0.55767,20231031:132735.808069,20231031:132736.815690
37,whites,w,0.22,Right,1.33309,20231031:132736.816926,20231031:132738.605016
38,whites,w,0.4,Left,0.44319,20231031:132738.606256,20231031:132739.511625
39,whites,w,0.1,Right,0.44863,20231031:132739.512900,20231031:132740.407460
40,whites,b,0.66,Left,2.03342,20231031:132740.408706,20231031:132742.905839
41,whites,b,0.84,Right,0.55101,20231031:132742.907299,20231031:132743.936625
42,whites,w,0.16,Right,0.84505,20231031:132743.937780,20231031:132745.262607
43,whites,b,0.66,Left,1.47992,20231031:132745.263868,20231031:132747.203883
44,whites,b,0.66,Right,0.45275,20231031:132747.205128,20231031:132748.106812
45,whites,w,0.34,Right,2.52602,20231031:132748.108053,20231031:132751.097253
46,whites,w,0.34,Left,2.58884,20231031:132751.098495,20231031:132754.146772
47,whites,b,0.6,Left,0.86213,20231031:132754.148025,20231031:132755.466415
48,whites,b,0.6,Right,1.06835,20231031:132755.467688,20231031:132757.026029
49,whites,b,0.78,Right,0.45099,20231031:132757.027245,20231031:132757.923169
50,whites,w,0.1,Right,0.44441,20231031:132757.924430,20231031:132758.829881
51,whites,b,0.84,Right,0.77804,20231031:132758.831142,20231031:132800.050354
52,whites,w,0.16,Right,0.42597,20231031:132800.051614,20231031:132800.955294
53,whites,w,0.1,Right,0.36472,20231031:132800.956590,20231031:132801.806863
54,whites,w,0.22,Right,0.5644,20231031:132801.808105,20231031:132802.807353
55,whites,w,0.1,Right,0.31174,20231031:132802.836620,20231031:132803.631498
56,whites,b,0.6,Right,0.46754,20231031:132803.633073,20231031:132804.540769
57,whites,w,0.16,Right,0.46479,20231031:132804.541682,20231031:132805.443231
58,whites,b,0.84,Right,0.50439,20231031:132805.444515,20231031:132806.392280
59,whites,b,0.84,Right,0.49066,20231031:132806.393580,20231031:132807.347516
60,whites,b,0.66,Right,0.65148,20231031:132809.478934,20231031:132810.596669
61,whites,b,0.6,Left,0.42567,20231031:132810.597918,20231031:132811.490673
62,whites,b,0.72,Right,0.36172,20231031:132811.491890,20231031:132812.283822
63,whites,b,0.84,Right,0.50194,20231031:132812.285087,20231031:132813.231262
64,whites,b,0.72,Right,0.96117,20231031:132813.232850,20231031:132814.663302
65,whites,w,0.22,Right,0.60344,20231031:132814.664541,20231031:132815.714178
66,whites,w,0.4,Left,0.53531,20231031:132815.752329,20231031:132816.748385
67,whites,w,0.4,Left,0.87461,20231031:132816.749627,20231031:132818.086696
68,whites,b,0.78,Right,0.89522,20231031:132818.087910,20231031:132819.448097
69,whites,b,0.84,Right,0.4638,20231031:132819.449535,20231031:132820.342102
70,whites,b,0.9,Right,0.53303,20231031:132820.343353,20231031:132821.338344
71,whites,w,0.34,Left,0.77626,20231031:132821.339613,20231031:132822.540656
72,whites,b,0.6,Right,1.58864,20231031:132822.541898,20231031:132824.582340
73,whites,w,0.16,Right,0.52186,20231031:132824.583570,20231031:132825.585423
74,whites,w,0.4,Left,0.45091,20231031:132825.586672,20231031:132826.513915
75,whites,w,0.34,Left,1.0442,20231031:132826.568941,20231031:132828.069467
76,whites,b,0.6,Left,0.52826,20231031:132828.070712,20231031:132829.064437
77,whites,w,0.4,Left,0.90706,20231031:132829.065682,20231031:132830.428386
78,whites,b,0.66,Left,1.62229,20231031:132830.429634,20231031:132832.550938
79,whites,b,0.66,Left,1.22604,20231031:132832.552243,20231031:132834.228267
80,whites,w,0.22,Right,1.05593,20231031:132834.229857,20231031:132835.762757
81,whites,w,0.34,Left,0.64996,20231031:132835.764002,20231031:132836.863204
82,whites,w,0.1,Right,0.41386,20231031:132836.864513,20231031:132837.703978
83,whites,b,0.72,Right,1.66312,20231031:132837.734884,20231031:132839.828795
84,whites,b,0.84,Right,0.47231,20231031:132839.830049,20231031:132840.774537
85,whites,b,0.66,Left,0.92643,20231031:132840.774931,20231031:132842.137477
86,whites,b,0.72,Left,1.1332,20231031:132842.138740,20231031:132843.708307
87,whites,w,0.4,Left,0.52154,20231031:132843.709540,20231031:132844.701994
88,whites,b,0.78,Right,0.66604,20231031:132844.703414,20231031:132845.840515
89,whites,w,0.28,Left,1.16524,20231031:132845.841753,20231031:132847.464256
90,whites,w,0.28,Right,0.74541,20231031:132847.465515,20231031:132848.675253
91,whites,w,0.22,Right,0.42476,20231031:132848.676506,20231031:132849.570847
92,whites,b,0.66,Left,0.70431,20231031:132849.572107,20231031:132850.726784
93,whites,w,0.1,Right,0.3483,20231031:132850.728356,20231031:132851.530275
94,whites,b,0.78,Right,0.73385,20231031:132851.531513,20231031:132852.738199
95,whites,w,0.22,Right,0.53144,20231031:132852.739460,20231031:132853.748952
96,whites,w,0.4,Left,0.55417,20231031:132853.750195,20231031:132854.746840
97,whites,b,0.78,Right,0.59841,20231031:132854.775567,20231031:132855.830831
98,whites,w,0.28,Right,0.60307,20231031:132855.832099,20231031:132856.884174
99,whites,b,0.9,Right,0.55764,20231031:132856.885463,20231031:132857.882570
100,whites,w,0.1,Right,0.86496,20231031:132857.883834,20231031:132859.208461
101,whites,w,0.34,Left,0.52091,20231031:132859.209823,20231031:132900.152368
102,whites,w,0.34,Right,2.02467,20231031:132900.153631,20231031:132902.615055
103,whites,b,0.78,Right,0.51614,20231031:132902.616328,20231031:132903.560940
104,whites,b,0.9,Right,0.47288,20231031:132903.561375,20231031:132904.506446
105,whites,w,0.1,Right,0.73283,20231031:132904.507727,20231031:132905.661930
106,whites,w,0.28,Left,0.43285,20231031:132905.691739,20231031:132906.583020
107,whites,b,0.78,Right,0.47248,20231031:132906.584325,20231031:132907.530750
108,whites,b,0.72,Right,0.44018,20231031:132907.531995,20231031:132908.426238
109,whites,b,0.6,Left,0.44399,20231031:132908.427494,20231031:132909.318152
110,whites,b,0.9,Right,0.5209,20231031:132909.319399,20231031:132910.261158
111,whites,w,0.16,Right,0.83099,20231031:132910.262425,20231031:132911.523305
112,whites,b,0.66,Left,0.64412,20231031:132911.524112,20231031:132912.627414
113,whites,b,0.6,Left,0.53766,20231031:132912.628686,20231031:132913.626208
114,whites,w,0.4,Left,0.54888,20231031:132913.627702,20231031:132914.637999
115,whites,b,0.9,Right,0.92153,20231031:132914.639232,20231031:132916.000393
116,whites,w,0.28,Right,4.61149,20231031:132916.001574,20231031:132921.082114
117,whites,b,0.72,Right,0.87091,20231031:132921.083555,20231031:132922.426507
118,whites,b,0.6,Left,0.99456,20231031:132922.427774,20231031:132923.847628
119,whites,w,0.34,Left,1.02238,20231031:132923.848885,20231031:132925.317894
